Sample:	
Run Date:	11-03-2020 19:06:57
Operator:	Hitachi spectro
Comment:	

Instrument
Model:	U-2010 Spectrophotometer
Serial Number:	9709-014
ROM Version:	2550 00

Instrument Parameters
Measurement Type:	Wavelength Scan
Data Mode:	Abs
Starting Wavelength:	900.0 nm
Ending Wavelength:	200.0 nm
Scan Speed:	100 nm/min
Sampling Interval:	1.0 nm
Slit Width:	2 nm
Lamp Change:	370.0 nm
Baseline Correction:	System
Response:	Medium

Peak Integration
Area Method:	Rectangular
Threshold:	10.0% based on 1 highest peaks
Peak Width:	10.0 nm
Peaks
Peak #	Start (nm)	Apex (nm)	End (nm)	Height (Abs)	Area (Abs*nm)
1	264.0	227.0	207.0	2.6442	42.2674

Data Points
nm	Abs
900.0	0.0004
899.0	0.0005
898.0	0.0005
897.0	0.0005
896.0	0.0005
895.0	0.0005
894.0	0.0005
893.0	0.0005
892.0	0.0005
891.0	0.0005
890.0	0.0005
889.0	0.0005
888.0	0.0005
887.0	0.0005
886.0	0.0005
885.0	0.0005
884.0	0.0005
883.0	0.0005
882.0	0.0005
881.0	0.0004
880.0	0.0004
879.0	0.0005
878.0	0.0005
877.0	0.0004
876.0	0.0004
875.0	0.0005
874.0	0.0005
873.0	0.0004
872.0	0.0004
871.0	0.0005
870.0	0.0005
869.0	0.0004
868.0	0.0003
867.0	0.0004
866.0	0.0004
865.0	0.0004
864.0	0.0003
863.0	0.0003
862.0	0.0003
861.0	0.0003
860.0	0.0003
859.0	0.0003
858.0	0.0003
857.0	0.0003
856.0	0.0001
855.0	0.0001
854.0	0.0003
853.0	0.0003
852.0	0.0003
851.0	0.0001
850.0	0.0001
849.0	0.0002
848.0	0.0001
847.0	0.0000
846.0	0.0000
845.0	0.0000
844.0	0.0000
843.0	0.0000
842.0	0.0001
841.0	0.0003
840.0	0.0003
839.0	0.0001
838.0	0.0000
837.0	0.0000
836.0	0.0001
835.0	0.0003
834.0	0.0003
833.0	0.0003
832.0	0.0003
831.0	0.0003
830.0	0.0003
829.0	0.0003
828.0	0.0004
827.0	0.0005
826.0	0.0005
825.0	0.0005
824.0	0.0005
823.0	0.0005
822.0	0.0005
821.0	0.0005
820.0	0.0005
819.0	0.0005
818.0	0.0005
817.0	0.0005
816.0	0.0005
815.0	0.0005
814.0	0.0005
813.0	0.0005
812.0	0.0005
811.0	0.0005
810.0	0.0005
809.0	0.0005
808.0	0.0005
807.0	0.0005
806.0	0.0005
805.0	0.0005
804.0	0.0005
803.0	0.0005
802.0	0.0005
801.0	0.0005
800.0	0.0005
799.0	0.0005
798.0	0.0007
797.0	0.0007
796.0	0.0007
795.0	0.0005
794.0	0.0005
793.0	0.0005
792.0	0.0005
791.0	0.0005
790.0	0.0005
789.0	0.0005
788.0	0.0005
787.0	0.0005
786.0	0.0007
785.0	0.0007
784.0	0.0007
783.0	0.0005
782.0	0.0005
781.0	0.0005
780.0	0.0005
779.0	0.0005
778.0	0.0005
777.0	0.0005
776.0	0.0005
775.0	0.0005
774.0	0.0005
773.0	0.0005
772.0	0.0005
771.0	0.0005
770.0	0.0005
769.0	0.0005
768.0	0.0005
767.0	0.0005
766.0	0.0005
765.0	0.0005
764.0	0.0005
763.0	0.0005
762.0	0.0005
761.0	0.0005
760.0	0.0004
759.0	0.0005
758.0	0.0005
757.0	0.0004
756.0	0.0005
755.0	0.0005
754.0	0.0004
753.0	0.0003
752.0	0.0003
751.0	0.0001
750.0	0.0001
749.0	0.0002
748.0	0.0001
747.0	0.0000
746.0	-0.0002
745.0	-0.0003
744.0	-0.0003
743.0	-0.0003
742.0	-0.0003
741.0	-0.0003
740.0	-0.0003
739.0	-0.0002
738.0	0.0000
737.0	0.0003
736.0	0.0003
735.0	0.0003
734.0	0.0003
733.0	0.0003
732.0	0.0002
731.0	0.0003
730.0	0.0004
729.0	0.0004
728.0	0.0004
727.0	0.0005
726.0	0.0005
725.0	0.0005
724.0	0.0005
723.0	0.0005
722.0	0.0005
721.0	0.0005
720.0	0.0005
719.0	0.0005
718.0	0.0005
717.0	0.0005
716.0	0.0005
715.0	0.0005
714.0	0.0005
713.0	0.0005
712.0	0.0005
711.0	0.0005
710.0	0.0007
709.0	0.0007
708.0	0.0007
707.0	0.0009
706.0	0.0009
705.0	0.0009
704.0	0.0010
703.0	0.0010
702.0	0.0010
701.0	0.0010
700.0	0.0012
699.0	0.0013
698.0	0.0014
697.0	0.0013
696.0	0.0013
695.0	0.0015
694.0	0.0015
693.0	0.0016
692.0	0.0016
691.0	0.0016
690.0	0.0017
689.0	0.0017
688.0	0.0018
687.0	0.0020
686.0	0.0020
685.0	0.0020
684.0	0.0020
683.0	0.0020
682.0	0.0021
681.0	0.0024
680.0	0.0024
679.0	0.0024
678.0	0.0027
677.0	0.0029
676.0	0.0032
675.0	0.0032
674.0	0.0032
673.0	0.0033
672.0	0.0035
671.0	0.0035
670.0	0.0036
669.0	0.0038
668.0	0.0041
667.0	0.0041
666.0	0.0044
665.0	0.0047
664.0	0.0049
663.0	0.0050
662.0	0.0052
661.0	0.0056
660.0	0.0056
659.0	0.0059
658.0	0.0061
657.0	0.0064
656.0	0.0065
655.0	0.0067
654.0	0.0070
653.0	0.0075
652.0	0.0078
651.0	0.0079
650.0	0.0083
649.0	0.0089
648.0	0.0093
647.0	0.0094
646.0	0.0097
645.0	0.0102
644.0	0.0107
643.0	0.0110
642.0	0.0115
641.0	0.0119
640.0	0.0124
639.0	0.0129
638.0	0.0135
637.0	0.0139
636.0	0.0143
635.0	0.0149
634.0	0.0153
633.0	0.0159
632.0	0.0166
631.0	0.0173
630.0	0.0180
629.0	0.0185
628.0	0.0191
627.0	0.0197
626.0	0.0205
625.0	0.0214
624.0	0.0220
623.0	0.0225
622.0	0.0233
621.0	0.0241
620.0	0.0249
619.0	0.0258
618.0	0.0267
617.0	0.0276
616.0	0.0284
615.0	0.0291
614.0	0.0300
613.0	0.0309
612.0	0.0319
611.0	0.0329
610.0	0.0339
609.0	0.0348
608.0	0.0359
607.0	0.0368
606.0	0.0379
605.0	0.0389
604.0	0.0400
603.0	0.0411
602.0	0.0416
601.0	0.0417
600.0	0.0424
599.0	0.0434
598.0	0.0444
597.0	0.0452
596.0	0.0460
595.0	0.0469
594.0	0.0477
593.0	0.0487
592.0	0.0495
591.0	0.0503
590.0	0.0511
589.0	0.0520
588.0	0.0526
587.0	0.0533
586.0	0.0539
585.0	0.0545
584.0	0.0551
583.0	0.0557
582.0	0.0562
581.0	0.0568
580.0	0.0570
579.0	0.0574
578.0	0.0576
577.0	0.0579
576.0	0.0580
575.0	0.0580
574.0	0.0580
573.0	0.0579
572.0	0.0579
571.0	0.0579
570.0	0.0576
569.0	0.0572
568.0	0.0570
567.0	0.0568
566.0	0.0562
565.0	0.0556
564.0	0.0550
563.0	0.0545
562.0	0.0539
561.0	0.0533
560.0	0.0526
559.0	0.0517
558.0	0.0509
557.0	0.0501
556.0	0.0492
555.0	0.0484
554.0	0.0476
553.0	0.0468
552.0	0.0458
551.0	0.0448
550.0	0.0438
549.0	0.0429
548.0	0.0421
547.0	0.0411
546.0	0.0401
545.0	0.0391
544.0	0.0382
543.0	0.0372
542.0	0.0361
541.0	0.0352
540.0	0.0344
539.0	0.0336
538.0	0.0327
537.0	0.0317
536.0	0.0309
535.0	0.0302
534.0	0.0293
533.0	0.0285
532.0	0.0278
531.0	0.0270
530.0	0.0263
529.0	0.0258
528.0	0.0252
527.0	0.0244
526.0	0.0237
525.0	0.0232
524.0	0.0226
523.0	0.0224
522.0	0.0222
521.0	0.0220
520.0	0.0217
519.0	0.0217
518.0	0.0216
517.0	0.0217
516.0	0.0221
515.0	0.0226
514.0	0.0234
513.0	0.0242
512.0	0.0253
511.0	0.0269
510.0	0.0288
509.0	0.0311
508.0	0.0337
507.0	0.0367
506.0	0.0398
505.0	0.0434
504.0	0.0474
503.0	0.0515
502.0	0.0559
501.0	0.0608
500.0	0.0655
499.0	0.0702
498.0	0.0747
497.0	0.0791
496.0	0.0833
495.0	0.0872
494.0	0.0907
493.0	0.0936
492.0	0.0961
491.0	0.0979
490.0	0.0991
489.0	0.0995
488.0	0.0994
487.0	0.0986
486.0	0.0973
485.0	0.0957
484.0	0.0937
483.0	0.0912
482.0	0.0884
481.0	0.0852
480.0	0.0820
479.0	0.0788
478.0	0.0757
477.0	0.0725
476.0	0.0697
475.0	0.0666
474.0	0.0636
473.0	0.0608
472.0	0.0582
471.0	0.0557
470.0	0.0534
469.0	0.0512
468.0	0.0496
467.0	0.0479
466.0	0.0464
465.0	0.0450
464.0	0.0436
463.0	0.0424
462.0	0.0412
461.0	0.0401
460.0	0.0391
459.0	0.0382
458.0	0.0372
457.0	0.0361
456.0	0.0351
455.0	0.0340
454.0	0.0329
453.0	0.0319
452.0	0.0309
451.0	0.0297
450.0	0.0287
449.0	0.0277
448.0	0.0267
447.0	0.0255
446.0	0.0247
445.0	0.0237
444.0	0.0230
443.0	0.0223
442.0	0.0215
441.0	0.0209
440.0	0.0201
439.0	0.0195
438.0	0.0191
437.0	0.0185
436.0	0.0182
435.0	0.0179
434.0	0.0174
433.0	0.0169
432.0	0.0166
431.0	0.0164
430.0	0.0164
429.0	0.0161
428.0	0.0157
427.0	0.0156
426.0	0.0153
425.0	0.0152
424.0	0.0150
423.0	0.0149
422.0	0.0149
421.0	0.0149
420.0	0.0149
419.0	0.0148
418.0	0.0147
417.0	0.0147
416.0	0.0147
415.0	0.0148
414.0	0.0149
413.0	0.0149
412.0	0.0150
411.0	0.0152
410.0	0.0152
409.0	0.0153
408.0	0.0157
407.0	0.0161
406.0	0.0164
405.0	0.0166
404.0	0.0169
403.0	0.0173
402.0	0.0177
401.0	0.0181
400.0	0.0184
399.0	0.0187
398.0	0.0192
397.0	0.0194
396.0	0.0197
395.0	0.0200
394.0	0.0204
393.0	0.0207
392.0	0.0209
391.0	0.0211
390.0	0.0214
389.0	0.0217
388.0	0.0219
387.0	0.0220
386.0	0.0221
385.0	0.0223
384.0	0.0223
383.0	0.0224
382.0	0.0225
381.0	0.0213
380.0	0.0184
379.0	0.0166
378.0	0.0166
377.0	0.0171
376.0	0.0175
375.0	0.0172
374.0	0.0172
373.0	0.0174
372.0	0.0172
371.0	0.0193
370.0	0.0237
369.0	0.0260
368.0	0.0262
367.0	0.0262
366.0	0.0262
365.0	0.0265
364.0	0.0267
363.0	0.0268
362.0	0.0268
361.0	0.0268
360.0	0.0268
359.0	0.0269
358.0	0.0271
357.0	0.0272
356.0	0.0271
355.0	0.0272
354.0	0.0273
353.0	0.0272
352.0	0.0275
351.0	0.0279
350.0	0.0280
349.0	0.0279
348.0	0.0277
347.0	0.0278
346.0	0.0281
345.0	0.0284
344.0	0.0285
343.0	0.0285
342.0	0.0284
341.0	0.0286
340.0	0.0288
339.0	0.0290
338.0	0.0290
337.0	0.0290
336.0	0.0290
335.0	0.0288
334.0	0.0286
333.0	0.0284
332.0	0.0284
331.0	0.0281
330.0	0.0279
329.0	0.0277
328.0	0.0275
327.0	0.0276
326.0	0.0276
325.0	0.0278
324.0	0.0281
323.0	0.0287
322.0	0.0294
321.0	0.0302
320.0	0.0308
319.0	0.0316
318.0	0.0326
317.0	0.0339
316.0	0.0350
315.0	0.0361
314.0	0.0372
313.0	0.0382
312.0	0.0391
311.0	0.0400
310.0	0.0407
309.0	0.0411
308.0	0.0415
307.0	0.0417
306.0	0.0418
305.0	0.0418
304.0	0.0417
303.0	0.0415
302.0	0.0412
301.0	0.0411
300.0	0.0411
299.0	0.0410
298.0	0.0407
297.0	0.0403
296.0	0.0400
295.0	0.0397
294.0	0.0394
293.0	0.0388
292.0	0.0383
291.0	0.0378
290.0	0.0372
289.0	0.0367
288.0	0.0361
287.0	0.0355
286.0	0.0348
285.0	0.0342
284.0	0.0335
283.0	0.0329
282.0	0.0324
281.0	0.0320
280.0	0.0317
279.0	0.0312
278.0	0.0310
277.0	0.0310
276.0	0.0309
275.0	0.0309
274.0	0.0312
273.0	0.0317
272.0	0.0322
271.0	0.0328
270.0	0.0334
269.0	0.0340
268.0	0.0347
267.0	0.0355
266.0	0.0366
265.0	0.0376
264.0	0.0384
263.0	0.0397
262.0	0.0412
261.0	0.0431
260.0	0.0453
259.0	0.0480
258.0	0.0510
257.0	0.0544
256.0	0.0581
255.0	0.0620
254.0	0.0662
253.0	0.0706
252.0	0.0754
251.0	0.0806
250.0	0.0863
249.0	0.0926
248.0	0.0998
247.0	0.1080
246.0	0.1174
245.0	0.1281
244.0	0.1405
243.0	0.1554
242.0	0.1737
241.0	0.1965
240.0	0.2262
239.0	0.2648
238.0	0.3155
237.0	0.3834
236.0	0.4744
235.0	0.5953
234.0	0.7550
233.0	0.9670
232.0	1.2434
231.0	1.5918
230.0	2.0000
229.0	2.3768
228.0	2.6198
227.0	2.6576
226.0	2.6198
225.0	2.5686
224.0	2.5376
223.0	2.4949
222.0	2.4089
221.0	2.2924
220.0	2.1487
219.0	1.9706
218.0	1.7423
217.0	1.4510
216.0	1.1029
215.0	0.7402
214.0	0.4151
213.0	0.2016
212.0	0.0864
211.0	0.0291
210.0	0.0126
209.0	0.0092
208.0	0.0030
207.0	-0.0001
206.0	-0.0005
205.0	0.0019
204.0	0.0026
203.0	0.0009
202.0	0.0022
201.0	0.0032
200.0	0.0022
